[nm];[A];
;Sample 1;
190.0;8.0000
191.0;0.8271
192.0;0.2595
193.0;0.7975
194.0;0.3637
195.0;0.4229
196.0;0.1928
197.0;0.4799
198.0;0.5407
199.0;0.4015
200.0;0.4966
201.0;0.6460
202.0;0.7354
203.0;0.9467
204.0;1.2698
205.0;1.6110
206.0;1.6966
207.0;1.9305
208.0;2.2011
209.0;2.3242
210.0;2.4257
211.0;2.6063
212.0;2.6055
213.0;2.5994
214.0;2.7642
215.0;2.6794
216.0;2.7428
217.0;2.9050
218.0;2.9240
219.0;2.8873
220.0;2.9774
221.0;2.9648
222.0;3.0006
223.0;3.0716
224.0;3.1035
225.0;2.9780
226.0;2.9894
227.0;3.0815
228.0;3.0551
229.0;2.9716
230.0;3.0830
231.0;3.1328
232.0;3.0700
233.0;3.1057
234.0;3.0487
235.0;3.1344
236.0;3.1584
237.0;3.1789
238.0;3.2064
239.0;3.2075
240.0;3.2384
241.0;3.1747
242.0;3.2340
243.0;3.2302
244.0;3.2581
245.0;3.1619
246.0;3.2803
247.0;3.2788
248.0;3.2435
249.0;3.2303
250.0;3.2494
251.0;3.2992
252.0;3.2874
253.0;3.3272
254.0;3.2115
255.0;3.3580
256.0;3.3713
257.0;3.2691
258.0;3.3192
259.0;3.1853
260.0;3.2161
261.0;3.1970
262.0;3.2442
263.0;3.2365
264.0;3.1413
265.0;3.2197
266.0;3.3584
267.0;3.1744
268.0;3.2051
269.0;3.1909
270.0;3.0742
271.0;3.0573
272.0;3.1085
273.0;3.1155
274.0;3.1153
275.0;3.1177
276.0;3.2327
277.0;3.1278
278.0;3.1643
279.0;3.2198
280.0;3.1090
281.0;3.0989
282.0;3.0753
283.0;3.1339
284.0;3.2116
285.0;3.2175
286.0;3.1688
287.0;3.1195
288.0;3.1376
289.0;3.1486
290.0;3.1780
291.0;3.1002
292.0;3.2062
293.0;3.2303
294.0;3.1843
295.0;3.2900
296.0;3.2231
297.0;3.2698
298.0;3.2510
299.0;3.1162
300.0;3.2276
301.0;3.2621
302.0;3.2369
303.0;3.2947
304.0;3.2135
305.0;3.4727
306.0;3.3857
307.0;3.1255
308.0;3.5405
309.0;3.2123
310.0;3.4163
311.0;3.3654
312.0;3.1828
313.0;3.3776
314.0;3.2863
315.0;3.2065
316.0;3.4110
317.0;3.2361
318.0;3.1140
319.0;3.0297
320.0;3.5734
321.0;3.3182
322.0;3.4803
323.0;3.1930
324.0;3.2069
325.0;3.1226
326.0;3.1191
327.0;3.1631
328.0;3.1179
329.0;3.2849
330.0;3.1666
331.0;3.1132
332.0;3.2408
333.0;3.0600
334.0;3.2450
335.0;3.1515
336.0;3.1389
337.0;3.2443
338.0;3.1814
339.0;3.2864
340.0;3.2222
341.0;3.1198
342.0;3.0899
343.0;3.1274
344.0;3.2714
345.0;3.1544
346.0;3.1195
347.0;3.1449
348.0;3.2555
349.0;3.1451
350.0;3.1593
351.0;3.1526
352.0;3.1592
353.0;3.1569
354.0;3.1853
355.0;3.0806
356.0;3.1763
357.0;3.1398
358.0;3.1241
359.0;3.1978
360.0;3.1862
361.0;3.1862
362.0;3.1016
363.0;3.1398
364.0;3.1809
365.0;3.0953
366.0;3.1213
367.0;3.1091
368.0;3.0888
369.0;3.2364
370.0;3.1336
371.0;3.0533
372.0;3.0353
373.0;3.0716
374.0;3.1063
375.0;3.1386
376.0;3.0871
377.0;3.1522
378.0;3.1230
379.0;3.1031
380.0;3.1645
381.0;3.1210
382.0;3.0860
383.0;3.0727
384.0;3.0692
385.0;3.0822
386.0;3.0751
387.0;3.0993
388.0;3.0826
389.0;3.1105
390.0;3.1429
391.0;3.0731
392.0;3.0908
393.0;3.1226
394.0;3.1599
395.0;3.1445
396.0;3.1059
397.0;3.1366
398.0;3.1277
399.0;3.1282
400.0;3.1018
401.0;3.1253
402.0;3.1550
403.0;3.1773
404.0;3.1793
405.0;3.1359
406.0;3.1841
407.0;3.1329
408.0;3.1504
409.0;3.1401
410.0;3.1523
411.0;3.0920
412.0;3.1729
413.0;3.1078
414.0;3.1658
415.0;3.1570
416.0;3.1632
417.0;3.1197
418.0;3.1672
419.0;3.1435
420.0;3.1506
421.0;3.1245
422.0;3.1574
423.0;3.1554
424.0;3.1694
425.0;3.1461
426.0;3.1694
427.0;3.1405
428.0;3.1355
429.0;3.1570
430.0;3.2102
431.0;3.1792
432.0;3.1585
433.0;3.1464
434.0;3.1737
435.0;3.1331
436.0;3.1679
437.0;3.1548
438.0;3.1987
439.0;3.1633
440.0;3.1361
441.0;3.1300
442.0;3.1471
443.0;3.1580
444.0;3.1557
445.0;3.1506
446.0;3.1514
447.0;3.1766
448.0;3.1473
449.0;3.1173
450.0;3.1575
451.0;3.1548
452.0;3.1615
453.0;3.1608
454.0;3.1333
455.0;3.1453
456.0;3.1690
457.0;3.1374
458.0;3.1256
459.0;3.1447
460.0;3.1839
461.0;3.1381
462.0;3.1270
463.0;3.1461
464.0;3.1730
465.0;3.1830
466.0;3.1787
467.0;3.1855
468.0;3.1454
469.0;3.1541
470.0;3.0984
471.0;3.1241
472.0;3.1154
473.0;3.0903
474.0;3.1172
475.0;3.1211
476.0;3.1326
477.0;3.1307
478.0;3.1233
479.0;3.1437
480.0;3.1317
481.0;3.1500
482.0;3.1491
483.0;3.1426
484.0;3.1473
485.0;3.1622
486.0;3.1775
487.0;3.1679
488.0;3.1674
489.0;3.1685
490.0;3.1851
491.0;3.1863
492.0;3.1862
493.0;3.2115
494.0;3.2015
495.0;3.1954
496.0;3.1940
497.0;3.1980
498.0;3.2088
499.0;3.2102
500.0;3.2249
501.0;3.2170
502.0;3.2349
503.0;3.2343
504.0;3.2560
505.0;3.2480
506.0;3.2653
507.0;3.2689
508.0;3.2910
509.0;3.2776
510.0;3.2859
511.0;3.3059
512.0;3.3070
513.0;3.3018
514.0;3.3098
515.0;3.3249
516.0;3.3215
517.0;3.3156
518.0;3.3320
519.0;3.3345
520.0;3.3419
521.0;3.3430
522.0;3.3408
523.0;3.3563
524.0;3.3560
525.0;3.3615
526.0;3.3489
527.0;3.3616
528.0;3.3506
529.0;3.3634
530.0;3.3570
531.0;3.3661
532.0;3.3554
533.0;3.3649
534.0;3.3670
535.0;3.3635
536.0;3.3590
537.0;3.3520
538.0;3.3502
539.0;3.3611
540.0;3.3541
541.0;3.3524
542.0;3.3634
543.0;3.3538
544.0;3.3492
545.0;3.3605
546.0;3.3539
547.0;3.3456
548.0;3.3489
549.0;3.3479
550.0;3.3477
551.0;3.3574
552.0;3.3550
553.0;3.3547
554.0;3.3595
555.0;3.3526
556.0;3.3631
557.0;3.3546
558.0;3.3521
559.0;3.3554
560.0;3.3508
561.0;3.3418
562.0;3.3383
563.0;3.3551
564.0;3.3360
565.0;3.3456
566.0;3.3411
567.0;3.3381
568.0;3.3278
569.0;3.3223
570.0;3.3103
571.0;3.3136
572.0;3.3101
573.0;3.2982
574.0;3.3111
575.0;3.2844
576.0;3.2936
577.0;3.2801
578.0;3.2686
579.0;3.2647
580.0;3.2783
581.0;3.2533
582.0;3.2535
583.0;3.2391
584.0;3.2404
585.0;3.2288
586.0;3.2186
587.0;3.2056
588.0;3.2017
589.0;3.1926
590.0;3.1677
591.0;3.1646
592.0;3.1618
593.0;3.1390
594.0;3.1214
595.0;3.1017
596.0;3.0711
597.0;2.9785
598.0;2.7955
599.0;2.5399
600.0;2.2438
601.0;1.9549
602.0;1.6948
603.0;1.4679
604.0;1.2742
605.0;1.1091
606.0;0.9672
607.0;0.8459
608.0;0.7422
609.0;0.6537
610.0;0.5785
611.0;0.5147
612.0;0.4602
613.0;0.4139
614.0;0.3739
615.0;0.3384
616.0;0.3072
617.0;0.2799
618.0;0.2563
619.0;0.2356
620.0;0.2176
621.0;0.2017
622.0;0.1876
623.0;0.1753
624.0;0.1643
625.0;0.1547
626.0;0.1463
627.0;0.1388
628.0;0.1321
629.0;0.1259
630.0;0.1203
631.0;0.1153
632.0;0.1108
633.0;0.1067
634.0;0.1030
635.0;0.0996
636.0;0.0966
637.0;0.0939
638.0;0.0914
639.0;0.0890
640.0;0.0870
641.0;0.0851
642.0;0.0834
643.0;0.0818
644.0;0.0802
645.0;0.0788
646.0;0.0775
647.0;0.0763
648.0;0.0751
649.0;0.0740
650.0;0.0730
651.0;0.0721
652.0;0.0713
653.0;0.0704
654.0;0.0696
655.0;0.0689
656.0;0.0682
657.0;0.0676
658.0;0.0668
659.0;0.0663
660.0;0.0656
661.0;0.0651
662.0;0.0646
663.0;0.0640
664.0;0.0636
665.0;0.0631
666.0;0.0626
667.0;0.0622
668.0;0.0618
669.0;0.0614
670.0;0.0609
671.0;0.0606
672.0;0.0602
673.0;0.0598
674.0;0.0595
675.0;0.0592
676.0;0.0588
677.0;0.0585
678.0;0.0582
679.0;0.0579
680.0;0.0576
681.0;0.0573
682.0;0.0570
683.0;0.0568
684.0;0.0565
685.0;0.0563
686.0;0.0560
687.0;0.0557
688.0;0.0555
689.0;0.0552
690.0;0.0550
691.0;0.0547
692.0;0.0545
693.0;0.0543
694.0;0.0541
695.0;0.0539
696.0;0.0536
697.0;0.0535
698.0;0.0533
699.0;0.0531
700.0;0.0521
